Subject,Front,Trial,Degree,RT,Acc
1,0,1,300,17.11,1
1,0,2,60,4.32,0
1,0,3,240,2.9,1
1,0,4,240,4.62,0
1,0,5,180,3,1
1,0,6,180,4,1
1,0,7,120,2.48,0
1,0,8,60,3.67,1
1,0,9,120,3.12,1
1,0,10,300,2.18,0
1,0,11,0,6.5,0
1,0,12,0,2.27,0
1,1,1,180,11.93,0
1,1,2,300,2.95,0
1,1,3,240,1.78,1
1,1,4,240,2.51,0
1,1,5,180,1.77,1
1,1,6,0,3.73,0
1,1,7,60,2.4,0
1,1,8,300,2.12,1
1,1,9,120,1.72,0
1,1,10,120,1.98,0
1,1,11,60,1.65,0
1,1,12,0,1.43,0
2,0,1,60,37.98,0
2,0,2,300,9.25,1
2,0,3,0,8.9,1
2,0,4,60,7.27,0
2,0,5,180,8.6,0
2,0,6,300,3.97,1
2,0,7,120,14.67,0
2,0,8,180,22.25,1
2,0,9,240,5.43,1
2,0,10,0,6.4,1
2,0,11,240,7.87,1
2,0,12,120,6.51,1
2,1,1,60,9.36,0
2,1,2,0,6.68,1
2,1,3,240,3.32,1
2,1,4,240,5.31,0
2,1,5,120,4.82,1
2,1,6,0,3.55,1
2,1,7,120,5.18,1
2,1,8,180,11.6,0
2,1,9,60,6.02,1
2,1,10,180,23.13,0
2,1,11,300,6.43,1
2,1,12,300,4.55,1
3,0,1,240,4.76,0
3,0,2,0,3.8,0
3,0,3,120,3.13,0
3,0,4,300,4.38,1
3,0,5,300,3.08,1
3,0,6,60,2.41,0
3,0,7,60,2.52,0
3,0,8,120,3,0
3,0,9,0,3.43,1
3,0,10,180,5.7,0
3,0,11,240,3.27,1
3,0,12,180,3.23,1
3,1,1,240,4.09,0
3,1,2,120,2.85,1
3,1,3,180,3.91,0
3,1,4,300,3.23,1
3,1,5,240,3.58,0
3,1,6,180,2.65,1
3,1,7,60,3.62,1
3,1,8,300,2.41,1
3,1,9,0,3.03,1
3,1,10,60,3.65,1
3,1,11,120,4.11,0
3,1,12,0,2.2,1
4,0,1,60,3.36,0
4,0,2,240,4.96,0
4,0,3,180,4.33,1
4,0,4,60,4.22,1
4,0,5,0,3.98,1
4,0,6,180,3.25,0
4,0,7,120,5.23,1
4,0,8,300,4.78,1
4,0,9,300,2.93,1
4,0,10,0,2.55,1
4,0,11,120,3.11,1
4,0,12,240,2.47,0
4,1,1,240,4.57,1
4,1,2,60,2.33,1
4,1,3,300,2.67,1
4,1,4,0,3.48,1
4,1,5,120,2.13,1
4,1,6,0,1.87,1
4,1,7,60,2.28,1
4,1,8,300,2.73,1
4,1,9,240,2.23,1
4,1,10,180,2.27,0
4,1,11,120,2.43,1
4,1,12,180,6.62,1
5,0,1,0,7.08,1
5,0,2,60,4.67,1
5,0,3,240,6.15,1
5,0,4,240,6.7,1
5,0,5,180,5.67,0
5,0,6,300,12,0
5,0,7,60,8.68,0
5,0,8,300,7.15,0
5,0,9,0,9.52,1
5,0,10,120,6.11,0
5,0,11,120,5.17,0
5,0,12,180,6.5,1
5,1,1,180,6.55,1
5,1,2,120,7.02,1
5,1,3,60,8.7,0
5,1,4,240,6.46,1
5,1,5,240,5.95,1
5,1,6,300,7.33,0
5,1,7,300,5.23,0
5,1,8,0,7.37,0
5,1,9,60,6.8,1
5,1,10,180,6.38,1
5,1,11,0,6.8,0
5,1,12,120,8.12,0
6,0,1,0,4.96,1
6,0,2,180,2.11,1
6,0,3,60,2.1,0
6,0,4,300,2.73,1
6,0,5,180,6.48,1
6,0,6,120,4.12,1
6,0,7,240,4.08,1
6,0,8,0,3.45,1
6,0,9,300,2.62,1
6,0,10,60,2.92,1
6,0,11,120,2.5,1
6,0,12,240,3.6,1
6,1,1,60,3.64,1
6,1,2,180,5.22,1
6,1,3,120,2.02,1
6,1,4,240,3.43,1
6,1,5,0,2.78,1
6,1,6,300,2.37,1
6,1,7,60,2.87,1
6,1,8,240,2.7,1
6,1,9,0,2.07,1
6,1,10,180,3.85,1
6,1,11,300,3.15,1
6,1,12,120,3.1,1
7,0,1,300,8.27,1
7,0,2,60,4.75,1
7,0,3,120,9.48,1
7,0,4,240,4.75,1
7,0,5,180,5.93,0
7,0,6,300,5.82,1
7,0,7,0,3.35,1
7,0,8,120,4.3,0
7,0,9,240,7.1,1
7,0,10,0,3.43,0
7,0,11,60,5.95,0
7,0,12,180,4.98,1
7,1,1,240,5.33,1
7,1,2,180,7.55,1
7,1,3,300,3.27,1
7,1,4,120,6.33,1
7,1,5,0,4.37,1
7,1,6,0,3.13,1
7,1,7,300,2.87,1
7,1,8,180,3.63,1
7,1,9,60,3.38,1
7,1,10,240,5.12,1
7,1,11,60,3.68,1
7,1,12,120,2.66,1
8,0,1,240,13.18,0
8,0,2,120,9.18,0
8,0,3,0,9.23,1
8,0,4,180,11.53,0
8,0,5,240,5.33,1
8,0,6,120,10.78,0
8,0,7,60,19.62,0
8,0,8,300,3.76,1
8,0,9,0,7.51,1
8,0,10,300,3.9,0
8,0,11,60,3.47,1
8,0,12,180,13.05,1
8,1,1,300,6.75,0
8,1,2,120,5.52,1
8,1,3,60,4.27,1
8,1,4,180,8.23,0
8,1,5,180,6.1,0
8,1,6,0,6.32,1
8,1,7,240,4.88,1
8,1,8,0,3.73,1
8,1,9,120,4.68,0
8,1,10,300,4.73,1
8,1,11,240,4.98,1
8,1,12,60,4.28,0
10,0,1,240,25.1,1
10,0,2,300,12.95,1
10,0,3,300,9.38,1
10,0,4,0,18.47,0
10,0,5,60,17.63,0
10,0,6,240,17.26,1
10,0,7,0,8.93,1
10,0,8,120,21.2,1
10,0,9,120,10.22,1
10,0,10,180,10.59,1
10,0,11,180,10.73,1
10,0,12,60,18.98,1
10,1,1,60,14.71,1
10,1,2,120,4.98,1
10,1,3,180,9.87,1
10,1,4,120,5.28,1
10,1,5,0,11.02,1
10,1,6,180,4.55,1
10,1,7,240,8.92,1
10,1,8,0,3.58,1
10,1,9,60,3.35,1
10,1,10,300,3.47,1
10,1,11,300,6.68,1
10,1,12,240,3.12,1
11,0,1,180,5.01,0
11,0,2,60,5.17,1
11,0,3,0,3.33,1
11,0,4,240,6.7,1
11,0,5,120,0.16,0
11,0,6,300,3.2,0
11,0,7,60,3.25,0
11,0,8,0,14.05,0
11,0,9,180,14.87,0
11,0,10,300,4.08,0
12,0,1,240,21.11,1
12,0,2,120,19.25,1
12,0,3,0,11.03,1
12,0,4,0,5.17,0
12,0,5,180,7.6,1
12,0,6,120,2.9,0
12,0,7,300,3.58,0
12,0,8,60,13.57,1
12,0,9,60,5.81,1
12,0,10,240,4.63,1
12,0,11,300,6.82,1
12,0,12,180,9.72,1
12,1,1,180,11.62,1
12,1,2,0,5.48,1
12,1,3,180,4.33,0
12,1,4,0,4.37,0
12,1,5,240,4.01,0
12,1,6,300,4.7,0
12,1,7,60,4.03,1
12,1,8,240,4.85,1
12,1,9,120,2.82,1
12,1,10,120,4.8,0
12,1,11,300,3.35,0
12,1,12,60,3.06,1
13,0,1,180,5.68,0
13,0,2,120,5.27,0
13,0,3,180,2.82,0
13,0,4,240,4.02,1
13,0,5,60,5.63,1
13,0,6,120,3.72,1
13,0,7,300,2.55,1
13,0,8,240,3.87,0
13,0,9,300,2.9,1
13,0,10,60,2.67,1
13,0,11,0,5.4,0
13,0,12,0,5.03,1
13,1,1,240,3.51,1
13,1,2,60,2.73,0
13,1,3,120,2.82,1
13,1,4,0,4.85,0
13,1,5,240,4.05,1
13,1,6,300,3.48,0
13,1,7,180,8.49,1
13,1,8,60,2.32,0
13,1,9,180,6.03,1
13,1,10,0,4.18,0
13,1,11,120,4.31,1
13,1,12,300,2.48,0
14,0,1,240,8.39,1
14,0,2,60,3,1
14,0,3,240,2.55,1
14,0,4,120,3.7,1
14,0,5,180,8.32,1
14,0,6,180,7.1,1
14,0,7,60,2.7,1
14,0,8,300,2.5,1
14,0,9,300,2.46,1
14,0,10,0,2.82,1
14,0,11,0,2.42,1
14,0,12,120,2.45,1
14,1,1,0,9.94,1
14,1,2,300,3.17,1
14,1,3,60,2.62,1
14,1,4,300,2.67,1
14,1,5,240,4.52,1
14,1,6,120,3.17,1
14,1,7,60,2.95,1
14,1,8,180,5.28,1
14,1,9,0,2.73,1
14,1,10,180,5.02,1
14,1,11,120,2.85,1
14,1,12,240,2.82,1
15,0,1,180,4.54,1
15,0,2,300,7.37,1
15,0,3,300,2.8,1
15,0,4,60,2.26,1
15,0,5,60,2.45,1
15,0,6,120,4.85,1
15,0,7,180,7.5,1
15,0,8,0,3.02,1
15,0,9,240,4.16,1
15,0,10,0,2.16,1
15,0,11,240,5.41,1
15,0,12,120,4,1
15,1,1,120,4.83,0
15,1,2,60,5.16,1
15,1,3,300,6.25,1
15,1,4,180,8.43,1
15,1,5,120,3.72,1
15,1,6,0,2.93,1
15,1,7,240,3.12,1
15,1,8,180,4.3,1
15,1,9,0,3.62,1
15,1,10,60,4.92,1
15,1,11,300,3.68,1
15,1,12,240,2.98,1
16,0,1,120,24.18,1
16,0,2,300,10.4,0
16,0,3,120,10.88,0
16,0,4,180,33.9,0
16,0,5,0,16.23,0
16,0,6,300,27.17,1
16,0,7,240,16.45,0
16,0,8,0,13.57,1
16,0,9,240,10.25,1
16,0,10,60,16.05,0
16,0,11,180,10.9,0
16,0,12,60,12.12,0
17,0,1,60,9.33,1
17,0,2,300,4.08,1
17,0,3,60,7.85,1
17,0,4,240,3.61,1
17,0,5,120,5.64,1
17,0,6,300,2.21,1
17,0,7,180,7.05,0
17,0,8,0,3.36,1
17,0,9,0,1.9,1
17,0,10,120,2.72,1
17,0,11,180,2.22,0
17,0,12,240,4.43,1
17,1,1,240,3.38,1
17,1,2,300,3.33,1
17,1,3,240,4.82,1
17,1,4,0,4.73,1
17,1,5,180,5.53,1
17,1,6,120,3.88,1
17,1,7,0,3.07,1
17,1,8,300,3.26,1
17,1,9,180,6.08,1
17,1,10,60,2.85,1
17,1,11,60,2.82,1
17,1,12,120,2.78,1
18,0,1,300,14.95,1
18,0,2,120,11.77,1
18,0,3,240,17.02,1
18,0,4,0,15.67,1
18,0,5,60,10.62,1
18,0,6,180,25.75,1
18,0,7,0,8.68,1
18,0,8,300,9.39,1
18,0,9,180,8.92,0
18,0,10,240,13.27,1
18,0,11,120,24.85,1
18,0,12,60,11.16,1
18,1,1,120,8.47,1
18,1,2,180,10.13,1
18,1,3,0,5.67,1
18,1,4,300,10.28,1
18,1,5,60,6.1,1
18,1,6,0,6.13,1
18,1,7,60,9.15,1
18,1,8,120,6.67,1
18,1,9,240,6.97,1
18,1,10,300,6.72,1
18,1,11,180,9.5,1
18,1,12,240,5.12,1
19,0,1,120,10.2,0
19,0,2,240,4.13,1
19,0,3,180,8.55,1
19,0,4,300,4.08,1
19,0,5,60,3.3,1
19,0,6,60,2.45,1
19,0,7,300,2.13,1
19,0,8,0,1.75,1
19,0,9,180,3.75,1
19,0,10,0,1.75,1
19,0,11,240,3.5,1
19,0,12,120,4.48,1
19,1,1,180,9.31,0
19,1,2,120,3.73,1
19,1,3,300,8.5,1
19,1,4,240,2.66,1
19,1,5,300,1.92,1
19,1,6,120,3.42,1
19,1,7,0,1.55,1
19,1,8,0,1.7,1
19,1,9,180,4.08,1
19,1,10,60,1.45,1
19,1,11,60,1.36,1
19,1,12,240,1.73,1
20,0,1,300,28.74,1
20,0,2,60,21.93,1
20,0,3,240,25.37,1
20,0,4,120,9.43,0
20,0,5,180,8.56,0
20,0,6,0,5.43,1
20,0,7,180,4.15,1
20,0,8,300,3.47,0
20,0,9,60,4.35,0
20,0,10,120,2.91,1
20,0,11,240,2.95,0
20,0,12,0,27.27,1
20,1,1,60,30.13,1
20,1,2,180,7.12,0
20,1,3,300,9.28,1
20,1,4,180,8.15,1
20,1,5,0,27.67,0
20,1,6,0,16.45,0
20,1,7,120,8.2,1
20,1,8,240,8.97,0
20,1,9,240,6.85,1
20,1,10,300,4.12,1
20,1,11,60,16.88,1
20,1,12,120,5.5,0
23,0,1,120,21.2,0
23,0,2,240,15.47,0
23,0,3,0,14.35,1
23,0,4,120,10.4,1
23,0,5,60,7.18,1
23,0,6,180,12.36,1
23,0,7,180,21.37,1
23,0,8,300,13.9,1
23,0,9,300,7.11,1
23,0,10,240,12.05,1
23,0,11,60,7.08,1
23,0,12,0,9.1,1
23,1,1,300,16.38,1
23,1,2,0,10.28,1
23,1,3,120,11.28,1
23,1,4,240,12.5,1
23,1,5,120,9.08,1
23,1,6,0,8.15,1
23,1,7,240,10.77,1
23,1,8,180,24,0
23,1,9,60,9.62,1
23,1,10,180,10.32,0
23,1,11,300,10.5,1
23,1,12,60,11.73,1
24,0,1,120,31.24,0
24,0,2,180,20.25,1
24,0,3,0,12.95,1
24,0,4,120,16.78,0
24,0,5,300,9.46,1
24,0,6,0,11.26,1
24,0,7,180,8.38,1
24,0,8,60,9.68,1
24,0,9,240,7.73,0
24,0,10,60,8.25,1
24,0,11,300,8.78,1
24,0,12,240,5.58,1
24,1,1,120,10.42,0
24,1,2,180,11.43,1
24,1,3,300,10.52,1
24,1,4,240,11.2,1
24,1,5,0,8.38,0
24,1,6,60,13.22,1
24,1,7,120,14.7,1
24,1,8,0,9.73,0
24,1,9,60,8.72,1
24,1,10,240,9.37,0
24,1,11,300,7.4,0
24,1,12,180,8.95,0
25,0,1,300,8.67,0
25,0,2,240,8.11,1
25,0,3,0,5.39,1
25,0,4,60,4.55,1
25,0,5,120,6.38,1
25,0,6,180,5.5,0
25,0,7,180,5.21,0
25,0,8,240,3.96,0
25,0,9,60,3.61,1
25,0,10,0,4.51,1
25,0,11,300,5.41,1
25,0,12,120,4.78,1
25,1,1,300,12.68,1
25,1,2,60,10.12,0
25,1,3,120,13.25,1
25,1,4,180,10.72,1
25,1,5,180,16.25,1
25,1,6,60,6.38,1
25,1,7,0,16.8,1
25,1,8,240,4.33,0
25,1,9,120,6.56,1
25,1,10,0,6.69,1
25,1,11,240,7.7,0
25,1,12,300,7.18,0
26,0,1,120,4.27,1
26,0,2,0,5.78,0
26,0,3,180,4.13,1
26,0,4,300,2.37,0
26,0,5,240,2.41,1
26,0,6,60,2.88,0
26,0,7,180,2.05,0
26,0,8,0,1.66,1
26,0,9,120,1.88,0
26,0,10,240,1.93,1
26,0,11,300,14,0
26,0,12,60,7.33,1
27,0,1,300,13,1
27,0,2,120,5.28,1
27,0,3,180,7.15,1
27,0,4,0,7.13,0
27,0,5,240,12.42,0
27,0,6,60,9.77,1
27,0,7,180,11.13,1
27,0,8,120,5.27,1
27,0,9,0,4.3,1
27,0,10,240,5.18,1
27,0,11,60,4.32,1
27,0,12,300,3.83,1
27,1,1,0,6.27,1
27,1,2,180,11.58,1
27,1,3,180,19.7,1
27,1,4,300,6.58,1
27,1,5,240,8.47,1
27,1,6,120,5.7,1
27,1,7,0,3.72,1
27,1,8,120,5.68,1
27,1,9,60,3.71,1
27,1,10,300,3.4,1
27,1,11,240,2.87,1
27,1,12,60,6.35,1
28,0,1,240,15.84,0
28,0,2,300,12.02,0
28,0,3,0,8.57,1
28,0,4,300,11.15,1
28,0,5,120,10.73,1
28,0,6,0,8,1
28,0,7,240,6.37,1
28,0,8,120,9.13,0
28,0,9,180,8.35,0
28,0,10,180,12.82,0
28,0,11,60,10.28,1
28,0,12,60,9.77,1
28,1,1,180,11.2,1
28,1,2,120,7.42,0
28,1,3,180,6.93,1
28,1,4,300,6.02,1
28,1,5,300,8.58,1
28,1,6,120,6.27,1
28,1,7,0,6.55,1
28,1,8,240,7.8,1
28,1,9,60,6.25,0
28,1,10,60,7.3,0
28,1,11,240,5.2,0
28,1,12,0,7.92,0
28,1,1,120,12.23,1
28,1,2,120,18.15,0
28,1,3,60,22.22,1
28,1,4,300,5.75,1
28,1,5,0,10.13,1
28,1,6,240,9.66,1
28,1,7,180,9.58,1
28,1,8,0,8.75,1
28,1,9,300,8.73,1
28,1,10,60,6.17,1
28,1,11,180,23.5,1
28,1,12,240,9.08,1
29,0,1,0,5.88,1
29,0,2,240,16.3,1
29,0,3,60,6.75,1
29,0,4,120,12.45,1
29,0,5,300,6.13,1
29,0,6,240,14.83,1
29,0,7,120,4.88,1
29,0,8,180,13.45,1
29,0,9,60,6.07,1
29,0,10,0,4.4,1
29,0,11,300,3.65,1
29,0,12,180,11.88,0
29,1,1,180,33.27,0
29,1,2,300,7.27,1
29,1,3,0,3.26,1
29,1,4,240,4.57,1
29,1,5,60,3.07,1
29,1,6,240,7.45,1
29,1,7,60,3.06,1
29,1,8,0,2.93,1
29,1,9,300,3.7,1
29,1,10,120,3.33,1
29,1,11,180,4.47,0
29,1,12,120,3.25,1
29,1,1,0,14.15,1
29,1,2,180,15.63,0
29,1,3,300,19.97,1
29,1,4,120,11.26,1
29,1,5,0,6.85,1
29,1,6,120,9.82,0
29,1,7,300,32.22,1
29,1,8,240,15.22,1
29,1,9,240,9.78,0
29,1,10,60,4.95,1
29,1,11,180,7.77,0
29,1,12,60,8.95,1
30,0,1,240,4.67,1
30,0,2,180,7.35,0
30,0,3,240,4.6,1
30,0,4,180,3.45,1
30,0,5,60,3.4,1
30,0,6,120,4.13,1
30,0,7,60,3.35,1
30,0,8,300,3.37,1
30,0,9,300,4.32,1
30,0,10,120,2.48,1
30,0,11,0,5.88,1
30,0,12,0,2.62,1
30,1,1,0,4.54,1
30,1,2,240,2.82,1
30,1,3,300,2.6,1
30,1,4,0,3.9,1
30,1,5,120,3.05,1
30,1,6,60,3.83,1
30,1,7,180,3.88,1
30,1,8,60,2.72,1
30,1,9,180,5.67,1
30,1,10,240,2.88,1
30,1,11,120,2.23,1
30,1,12,300,2.18,1
31,0,1,120,49.06,1
31,0,2,60,28.82,1
31,0,3,0,23.77,0
31,0,4,300,19.72,0
31,0,5,240,38.53,0
31,0,6,180,60.5,1
31,0,7,60,10.67,1
31,0,8,300,9.95,1
31,0,9,240,43.15,1
31,0,10,0,26.42,0
31,0,11,120,12.1,0
31,0,12,180,21.33,1
32,0,1,60,16.5,1
32,0,2,120,14.22,1
32,0,3,180,18.12,1
32,0,4,240,7.18,1
32,0,5,0,6.38,1
32,0,6,60,5.98,1
32,0,7,300,9.25,1
32,0,8,240,12,1
32,0,9,180,16.83,1
32,0,10,0,4.72,1
32,0,11,300,3.92,1
32,0,12,120,11.53,1
35,0,1,60,5.54,1
35,0,2,240,21.15,1
35,0,3,240,5.95,1
35,0,4,120,3.75,1
35,0,5,300,2.27,1
35,0,6,120,4.45,1
35,0,7,0,2.15,1
35,0,8,60,2.5,1
35,0,9,0,2.32,1
35,0,10,180,21.82,1
35,0,11,300,2.57,1
35,0,12,180,14.05,1
35,1,1,240,26.47,1
35,1,2,180,7.63,1
35,1,3,60,2.12,1
35,1,4,0,2.21,1
35,1,5,120,3.06,1
35,1,6,300,2.35,1
35,1,7,60,2.02,1
35,1,8,120,3.97,1
35,1,9,180,4.35,1
35,1,10,300,2.13,1
35,1,11,240,2.35,1
35,1,12,0,1.45,1
36,0,1,60,14.09,1
36,0,2,0,10.03,1
36,0,3,180,14.5,1
36,0,4,120,5.75,1
36,0,5,300,5.33,1
36,0,6,180,28.69,0
36,0,7,60,3.65,1
36,0,8,120,7.58,1
36,0,9,0,4.22,1
36,0,10,240,7.83,1
36,0,11,240,3.96,1
36,0,12,300,4.73,1
36,1,1,60,11.27,1
36,1,2,240,5.12,1
36,1,3,120,4.35,1
36,1,4,0,3.35,1
36,1,5,300,3.53,1
36,1,6,120,4.82,1
36,1,7,0,2.77,1
36,1,8,240,3.27,1
36,1,9,180,5.11,1
36,1,10,60,5.23,1
36,1,11,300,3.33,1
36,1,12,180,6.3,1
37,0,1,60,7.22,1
37,0,2,180,9.41,0
37,0,3,0,4.85,1
37,0,4,240,5.42,1
37,0,5,120,5.3,0
37,0,6,240,7.28,1
37,0,7,60,3.13,1
37,0,8,300,4.92,1
37,0,9,120,8.7,0
37,0,10,300,3.13,1
37,0,11,180,10.85,0
37,0,12,0,4.1,1
37,1,1,0,5.69,1
37,1,2,120,6.43,1
37,1,3,240,3.2,1
37,1,4,180,15,0
37,1,5,300,3.85,1
37,1,6,240,11,1
37,1,7,300,2.62,1
37,1,8,120,8.08,1
37,1,9,0,3.1,1
37,1,10,180,5.08,0
37,1,11,60,1.76,1
37,1,12,60,2.33,1
39,0,1,300,15.58,1
39,0,2,60,22.63,1
39,0,3,120,12.95,1
39,0,4,0,4.07,1
39,0,5,300,8.8,1
39,0,6,180,4.38,0
39,0,7,180,9.78,1
39,0,8,240,11.87,1
39,0,9,120,11.28,1
39,0,10,0,3.61,1
39,0,11,60,4.22,1
39,0,12,240,9.1,1
39,1,1,240,22.87,1
39,1,2,120,9.38,1
39,1,3,300,3.02,1
39,1,4,60,6.28,1
39,1,5,300,5.18,1
39,1,6,0,4.27,1
39,1,7,180,19.93,0
39,1,8,120,10.94,1
39,1,9,0,5.17,1
39,1,10,180,12.63,1
39,1,11,240,6.78,1
39,1,12,60,2.97,1
40,0,1,180,5.68,1
40,0,2,120,3.08,0
40,0,3,240,2.43,1
40,0,4,300,2.75,1
40,0,5,120,2.73,1
40,0,6,180,6.78,0
40,0,7,0,2.35,1
40,0,8,240,3.35,1
40,0,9,0,2.85,1
40,0,10,300,2.7,1
40,0,11,60,2.16,1
40,0,12,60,3.88,1
40,0,1,60,3.91,1
40,0,2,300,1.95,0
40,0,3,60,3.7,0
40,0,4,240,6.62,0
40,0,5,0,6,1
40,0,6,300,5.07,1
40,0,7,0,3.32,1
40,0,8,180,13.77,0
40,0,9,120,4.45,0
40,0,10,180,23.35,1
40,0,11,240,4.3,0
40,0,12,120,6.5,0
40,1,1,180,11.39,1
40,1,2,240,4.47,0
40,1,3,60,3.03,1
40,1,4,120,3.2,0
40,1,5,0,2.67,1
40,1,6,120,3.51,0
40,1,7,240,6.25,0
40,1,8,180,4.95,1
40,1,9,60,3.62,1
40,1,10,300,2.42,1
40,1,11,300,2.75,1
40,1,12,0,1.93,1
41,1,1,240,3.83,1
41,1,2,120,2.88,1
41,1,3,60,2.38,1
41,1,4,180,5.87,1
41,1,5,0,8.78,1
41,1,6,120,3.28,1
41,1,7,60,3.07,1
41,1,8,0,1.98,1
41,1,9,180,4.92,1
41,1,10,300,5,1
41,1,11,300,2.37,1
41,1,12,240,4.53,1
42,0,1,60,15.05,1
42,0,2,300,7.17,1
42,0,3,120,7.68,0
42,0,4,240,9.3,0
42,0,5,60,6.48,0
42,0,6,0,4.3,1
42,0,7,300,7.32,1
42,0,8,240,16.43,0
42,0,9,180,12.18,0
42,0,10,0,8.25,0
42,0,11,180,25.78,0
42,0,12,120,7.52,0
43,0,1,240,9.04,1
43,0,2,300,9.64,1
43,0,3,0,3.85,1
43,0,4,180,6.27,1
43,0,5,120,7.38,1
43,0,6,300,4.28,1
43,0,7,60,5.63,1
43,0,8,60,2.68,1
43,0,9,120,4.4,1
43,0,10,180,2.9,1
43,0,11,0,4.42,1
43,0,12,240,3.25,1
43,0,1,120,23.67,1
43,0,2,180,13.22,1
43,0,3,240,6.58,1
43,0,4,0,6.5,1
43,0,5,60,9.83,1
43,0,6,60,4.55,1
43,0,7,120,5.35,1
43,0,8,240,7.38,1
43,0,9,180,4.93,1
43,0,10,300,7.08,1
43,0,11,0,3.92,1
43,0,12,300,4.95,1
43,1,1,0,11.51,1
43,1,2,300,3.3,1
43,1,3,0,1.97,1
43,1,4,120,3.68,1
43,1,5,240,4.25,1
43,1,6,120,4.22,1
43,1,7,300,2.25,1
43,1,8,180,8.27,1
43,1,9,60,2.32,1
43,1,10,60,1.95,1
43,1,11,180,4.1,1
43,1,12,240,2.65,1
43,1,1,300,13.4,1
43,1,2,0,5.75,1
43,1,3,240,9.83,1
43,1,4,300,3.57,1
43,1,5,0,4.72,1
43,1,6,120,5.32,1
43,1,7,180,5.61,1
43,1,8,60,7.98,1
43,1,9,240,7.67,1
43,1,10,180,3.45,1
43,1,11,60,3.75,1
43,1,12,120,3.37,1
45,0,1,300,7.16,1
45,0,2,120,6.73,1
45,0,3,60,3.95,1
45,0,4,120,3.53,1
45,0,5,300,2.75,1
45,0,6,0,4.88,1
45,0,7,60,10.8,1
45,0,8,0,4.56,1
45,0,9,180,4.45,1
45,0,10,240,2.92,1
45,0,11,180,3.58,1
45,0,12,240,3.35,1
45,1,1,120,11.01,1
45,1,2,0,5.07,1
45,1,3,60,3.07,1
45,1,4,180,3.68,1
45,1,5,240,3,1
45,1,6,180,3.12,1
45,1,7,0,2.75,1
45,1,8,240,2.47,1
45,1,9,300,2.6,1
45,1,10,300,2.87,1
45,1,11,120,3.23,1
45,1,12,60,3.27,1
46,0,1,60,25.15,1
46,0,2,180,46.7,1
46,0,3,60,6.97,1
46,0,4,0,3.37,1
46,0,5,120,8.83,1
46,0,6,180,11.65,1
46,0,7,300,5.98,1
46,0,8,120,4.85,1
46,0,9,0,4.31,1
46,0,10,240,12.62,1
46,0,11,240,3.82,1
46,0,12,300,3.12,1
46,1,1,120,35.04,1
46,1,2,240,20.68,1
46,1,3,240,15.63,1
46,1,4,180,17.53,0
46,1,5,60,11.47,0
46,1,6,0,7.49,1
46,1,7,300,4.31,1
46,1,8,300,5.2,1
46,1,9,0,4.05,1
46,1,10,180,6.83,0
46,1,11,120,12.64,1
46,1,12,60,5.76,1
47,0,1,300,9.82,1
47,0,2,180,5.73,1
47,0,3,120,6.78,1
47,0,4,60,3.18,1
47,0,5,300,2.22,1
47,0,6,0,2.32,1
47,0,7,240,3.07,1
47,0,8,240,2.8,1
47,0,9,60,2.4,1
47,0,10,120,3.05,1
47,0,11,180,2.93,1
47,0,12,0,2.4,1
47,1,1,300,5.9,1
47,1,2,60,2.3,1
47,1,3,0,2.57,1
47,1,4,180,4.42,1
47,1,5,240,2.88,1
47,1,6,240,1.73,1
47,1,7,120,2.13,1
47,1,8,60,1.72,1
47,1,9,0,1.62,1
47,1,10,120,1.7,1
47,1,11,300,1.58,1
47,1,12,180,5.03,1
48,0,1,0,4.4,1
48,0,2,60,4.87,1
48,0,3,300,4.25,1
48,0,4,180,5.8,1
48,0,5,120,4.13,1
48,0,6,180,4.4,1
48,0,7,240,3.86,1
48,0,8,300,3.22,1
48,0,9,60,3.3,1
48,0,10,0,2.88,1
48,0,11,240,4.4,1
48,0,12,120,4.9,1
48,1,1,240,11.88,1
48,1,2,120,5.63,1
48,1,3,240,7.08,1
48,1,4,300,3.37,1
48,1,5,300,3.78,1
48,1,6,120,3.18,1
48,1,7,0,2.65,1
48,1,8,60,2.36,1
48,1,9,60,2.58,1
48,1,10,0,3.55,1
48,1,11,180,7.42,1
48,1,12,180,9.3,1
49,0,1,240,31.53,1
49,0,2,120,6.36,1
49,0,3,240,12.15,0
49,0,4,60,5.75,0
49,0,5,0,4.78,1
49,0,6,300,11.27,1
49,0,7,180,8.4,0
49,0,8,0,5.1,1
49,0,9,120,6.05,1
49,0,10,60,3.3,1
49,0,11,300,8.92,1
49,0,12,180,4.51,0
49,1,1,0,5.97,0
49,1,2,0,19.63,0
49,1,3,120,8.02,1
49,1,4,120,19.48,1
49,1,5,60,12.81,1
49,1,6,180,11.67,0
49,1,7,60,9.3,1
49,1,8,240,7.82,0
49,1,9,180,6.29,0
49,1,10,300,4.08,1
49,1,11,240,8.19,0
49,1,12,300,9.28,1
50,0,1,0,26.06,1
50,0,2,300,6.98,1
50,0,3,300,8.25,1
50,0,4,120,31.42,0
50,0,5,0,4.53,1
50,0,6,240,18,1
50,0,7,180,37.55,0
50,0,8,120,26.68,0
50,0,9,60,7.83,1
50,0,10,60,6.9,1
50,0,11,180,7.15,0
50,0,12,240,5.82,0
50,1,1,60,13.75,1
50,1,2,240,3.33,0
50,1,3,180,12.67,0
50,1,4,60,2.53,1
50,1,5,0,1.71,1
50,1,6,120,8.23,1
50,1,7,240,3.6,1
50,1,8,120,2.28,0
50,1,9,0,2.33,1
50,1,10,300,2.55,1
50,1,11,180,7.77,0
50,1,12,300,8.08,0
51,0,1,60,12.43,1
51,0,2,120,38.88,1
51,0,3,180,13.05,1
51,0,4,240,21.95,1
51,0,5,120,10.9,1
51,0,6,300,7.45,1
51,0,7,0,15.34,1
51,0,8,180,7.86,1
51,0,9,240,9.58,1
51,0,10,60,7.1,1
51,0,11,300,5.65,1
51,0,12,0,6.5,1
51,1,1,180,23.96,1
51,1,2,120,21.97,0
51,1,3,240,36.31,0
51,1,4,0,20.55,1
51,1,5,300,16.27,1
51,1,6,60,9.81,1
51,1,7,180,11.3,1
51,1,8,120,7.57,1
51,1,9,300,7.55,1
51,1,10,60,19.53,1
51,1,11,240,6.55,1
51,1,12,0,8.97,1
52,0,1,240,7.99,1
52,0,2,60,4.27,1
52,0,3,180,4,1
52,0,4,300,3.82,1
52,0,5,0,3.63,1
52,0,6,180,8.25,1
52,0,7,0,3.78,1
52,0,8,120,8.45,1
52,0,9,300,2.7,1
52,0,10,240,7,1
52,0,11,60,3.55,1
52,0,12,120,4.58,1
52,1,1,240,10.03,1
52,1,2,300,12.73,1
52,1,3,0,8.87,1
52,1,4,120,10.52,1
52,1,5,0,11.03,1
52,1,6,180,11.8,1
52,1,7,60,4.6,1
52,1,8,60,3.75,1
52,1,9,300,4.82,1
52,1,10,180,11.45,0
52,1,11,120,9.67,1
52,1,12,240,14.58,1
53,0,1,240,11.9,1
53,0,2,0,16.83,1
53,0,3,120,7.58,1
53,0,4,180,7.13,0
53,0,5,0,28.92,0
53,0,6,240,27.4,1
53,0,7,60,28.55,1
53,0,8,300,10.24,1
53,0,9,300,4.13,1
53,0,10,60,7.42,1
53,0,11,180,61.05,0
53,0,12,120,18.1,1
53,1,1,0,5.23,1
53,1,2,0,3.7,1
53,1,3,240,15.97,1
53,1,4,300,9.18,1
53,1,5,60,5.32,1
53,1,6,120,11.12,1
53,1,7,300,4.55,1
53,1,8,180,23.97,1
53,1,9,180,35.93,1
53,1,10,60,3.55,1
53,1,11,240,9.17,1
53,1,12,120,15.07,1
54,0,1,300,9.4,1
54,0,2,0,3.9,1
54,0,3,120,8.52,1
54,0,4,60,3.88,1
54,0,5,60,10.08,0
54,0,6,180,13.78,1
54,0,7,120,9.6,1
54,0,8,0,9.12,1
54,0,9,300,4.8,1
54,0,10,240,10.93,0
54,0,11,180,10.42,1
54,0,12,240,13.13,1
54,1,1,60,6.54,1
54,1,2,0,5.42,1
54,1,3,0,13.55,1
54,1,4,180,8.17,1
54,1,5,120,6.1,1
54,1,6,240,5.31,0
54,1,7,240,14.15,0
54,1,8,120,12.67,1
54,1,9,300,6.15,0
54,1,10,180,14.17,1
54,1,11,60,5.05,1
54,1,12,300,5.65,1
55,0,1,300,4.57,1
55,0,2,120,6.28,0
55,0,3,240,5.72,1
55,0,4,120,5.93,0
55,0,5,0,4.74,1
55,0,6,60,8.62,0
55,0,7,300,5.18,1
55,0,8,240,7.72,1
55,0,9,60,4.43,1
55,0,10,180,10.07,1
55,0,11,180,9.9,0
55,0,12,0,11.43,1
55,1,1,300,6.08,1
55,1,2,120,6.6,1
55,1,3,60,5.88,1
55,1,4,60,3.12,1
55,1,5,0,2.38,1
55,1,6,120,3.68,1
55,1,7,180,6.97,0
55,1,8,0,6.28,1
55,1,9,240,3.17,1
55,1,10,180,11.63,1
55,1,11,240,4.72,1
55,1,12,300,4.37,1
56,0,1,0,3.83,1
56,0,2,0,2.33,1
56,0,3,120,5.67,1
56,0,4,300,3.28,1
56,0,5,180,5.75,1
56,0,6,300,2.25,1
56,0,7,180,16.73,1
56,0,8,60,2.55,1
56,0,9,60,3.68,1
56,0,10,120,23.34,1
56,0,11,240,5.3,1
56,0,12,240,3.53,1
56,1,1,60,4.24,1
56,1,2,300,2.88,1
56,1,3,60,2.71,1
56,1,4,240,2.75,1
56,1,5,180,11.03,1
56,1,6,240,6.65,1
56,1,7,0,2.52,1
56,1,8,120,2.86,0
56,1,9,120,7.12,1
56,1,10,180,7.62,1
56,1,11,300,2.4,1
56,1,12,0,2.27,1
57,0,1,180,7.95,1
57,0,2,240,6.05,1
57,0,3,300,3.9,1
57,0,4,240,7.31,1
57,0,5,60,4.9,1
57,0,6,120,4.02,1
57,0,7,180,4.37,1
57,0,8,0,3.61,1
57,0,9,300,5.03,1
57,0,10,60,3.68,1
57,0,11,120,3.85,1
57,0,12,0,3.2,1
57,1,1,60,4.68,0
57,1,2,180,14.22,1
57,1,3,120,3.35,1
57,1,4,300,4.37,1
57,1,5,60,5.02,1
57,1,6,240,5.6,1
57,1,7,0,3.33,1
57,1,8,240,6.88,1
57,1,9,0,3.23,1
57,1,10,120,5.18,1
57,1,11,300,5.27,1
57,1,12,180,4.83,1
58,0,1,120,17.01,1
58,0,2,300,26.15,1
58,0,3,180,13.8,1
58,0,4,0,7.08,1
58,0,5,300,9.13,1
58,0,6,0,10.9,0
58,0,7,240,11.97,1
58,0,8,60,4.75,1
58,0,9,180,16.53,1
58,0,10,120,10.62,1
58,0,11,60,9.35,1
58,0,12,240,9.5,0
58,1,1,60,7.38,1
58,1,2,60,4.3,1
58,1,3,0,3.5,1
58,1,4,240,5.45,1
58,1,5,120,8.12,1
58,1,6,180,5.53,1
58,1,7,300,5.58,1
58,1,8,0,4.44,1
58,1,9,300,3.73,1
58,1,10,120,3.37,1
58,1,11,180,3.67,1
58,1,12,240,3.4,1
59,0,1,60,5,1
59,0,2,300,3.53,1
59,0,3,180,6.23,0
59,0,4,120,3.3,0
59,0,5,240,5.95,1
59,0,6,60,5.21,1
59,0,7,0,4.16,1
59,0,8,0,2.78,1
59,0,9,180,4.06,0
59,0,10,240,3.54,0
59,0,11,300,3.81,1
59,0,12,120,4.83,1
59,1,1,0,5.35,0
59,1,2,60,5.38,1
59,1,3,60,3.48,1
59,1,4,300,6.78,1
59,1,5,180,3.77,0
59,1,6,120,5.23,1
59,1,7,120,3.45,1
59,1,8,0,3.13,1
59,1,9,240,4.87,0
59,1,10,240,2.67,0
59,1,11,180,3.28,0
59,1,12,300,2.9,1
60,0,1,60,7.17,0
60,0,2,120,5.63,0
60,0,3,180,7.58,0
60,0,4,240,5.35,1
60,0,5,0,2.98,1
60,0,6,300,3.47,1
60,0,7,120,5.61,1
60,0,8,240,6.03,1
60,0,9,0,3.31,1
60,0,10,180,4.25,1
60,0,11,300,2.48,1
60,0,12,60,2.45,1
60,1,1,240,4.98,1
60,1,2,180,4.45,1
60,1,3,120,2.43,1
60,1,4,300,2.55,1
60,1,5,60,2.33,1
60,1,6,0,2.08,1
60,1,7,120,3.83,1
60,1,8,0,1.66,1
60,1,9,240,3.23,1
60,1,10,300,6.43,1
60,1,11,180,4.18,1
60,1,12,60,4.67,1
62,0,1,300,13.05,1
62,0,2,120,4.65,1
62,0,3,240,5.47,1
62,0,4,60,4.21,1
62,0,5,0,5.61,1
62,0,6,180,8.93,1
62,0,7,60,5.4,1
62,0,8,120,9.36,1
62,0,9,240,4.42,1
62,0,10,0,3.18,1
62,0,11,300,3.75,1
62,0,12,180,13.4,0
62,1,1,240,9.69,1
62,1,2,60,4.1,1
62,1,3,300,3.3,1
62,1,4,0,3.25,1
62,1,5,60,3.77,1
62,1,6,180,6.95,1
62,1,7,240,5.2,1
62,1,8,120,4.1,1
62,1,9,0,3.03,1
62,1,10,120,3.5,1
62,1,11,180,5.51,1
62,1,12,300,4.11,1
64,0,1,180,15.72,1
64,0,2,60,44.99,1
64,0,3,120,18.83,0
64,0,4,240,25.7,0
64,0,5,60,6.58,1
64,0,6,240,10.7,0
64,0,7,300,11.27,1
64,0,8,180,4.47,1
64,0,9,300,19.1,1
64,0,10,0,12.47,1
64,0,11,0,6.17,1
64,0,12,120,15.35,1
64,1,1,60,33.71,1
64,1,2,300,3.25,1
64,1,3,0,3.83,1
64,1,4,300,6.08,1
64,1,5,180,20.83,1
64,1,6,60,5.42,1
64,1,7,120,3.13,0
64,1,8,240,4.53,1
64,1,9,0,6.58,1
64,1,10,120,7.18,1
64,1,11,180,5.45,1
64,1,12,240,5.9,1
65,0,1,0,23.68,1
65,0,2,300,27.82,1
65,0,3,120,23.03,0
65,0,4,0,26.37,1
65,0,5,180,29.47,0
65,0,6,240,32.1,1
65,0,7,120,18.53,0
65,0,8,180,13.75,1
65,0,9,300,15.9,1
65,0,10,240,9.68,1
65,0,11,60,6.02,1
65,0,12,60,10.72,1
65,1,1,120,18.85,0
65,1,2,240,14.9,0
65,1,3,180,9.24,1
65,1,4,300,7.88,1
65,1,5,300,4.57,0
65,1,6,180,10.1,0
65,1,7,0,6.13,1
65,1,8,240,3.58,1
65,1,9,60,3.83,1
65,1,10,0,4.43,0
65,1,11,120,3.35,1
65,1,12,60,7.85,0
66,0,1,0,9.75,1
66,0,2,120,4.76,1
66,0,3,60,4.58,1
66,0,4,180,4.92,1
66,0,5,180,7.08,1
66,0,6,0,3.07,1
66,0,7,300,4.62,1
66,0,8,300,3.38,1
66,0,9,240,3.63,1
66,0,10,120,3.36,1
66,0,11,60,4.72,1
66,0,12,240,3.4,1
66,1,1,60,7.03,1
66,1,2,300,3.35,1
66,1,3,0,2.53,1
66,1,4,180,6.01,1
66,1,5,300,7.25,1
66,1,6,60,3.43,1
66,1,7,0,2.9,1
66,1,8,120,3.87,1
66,1,9,240,3.4,1
66,1,10,120,3.32,1
66,1,11,240,3.35,1
66,1,12,180,2.76,1
67,0,1,240,33.31,0
67,0,2,0,7.43,1
67,0,3,60,3.78,0
67,0,4,180,13.3,1
67,0,5,300,5.97,1
67,0,6,120,4.19,0
67,0,7,180,6.47,0
67,0,8,240,6.86,0
67,0,9,0,10.18,1
67,0,10,300,6.07,1
67,0,11,120,7.15,1
67,0,12,60,5.23,1
67,1,1,240,5.5,1
67,1,2,180,12.73,1
67,1,3,0,3.52,1
67,1,4,240,4.43,1
67,1,5,300,3.12,1
67,1,6,300,3.1,1
67,1,7,120,2.82,1
67,1,8,60,3.15,1
67,1,9,60,2.75,1
67,1,10,120,4.35,1
67,1,11,0,2.68,1
67,1,12,180,4.27,1
68,0,1,120,9.87,1
68,0,2,300,13,1
68,0,3,180,7.51,1
68,0,4,60,4.53,1
68,0,5,60,3.3,1
68,0,6,180,18.71,1
68,0,7,0,3.9,1
68,0,8,240,3.18,1
68,0,9,0,8.95,1
68,0,10,120,4.96,1
68,0,11,240,5.46,1
68,0,12,300,2.4,1
68,1,1,120,5.57,1
68,1,2,180,4.83,1
68,1,3,120,4.46,1
68,1,4,0,2.9,1
68,1,5,240,3,1
68,1,6,300,2.5,1
68,1,7,300,4.68,1
68,1,8,60,2.78,1
68,1,9,180,5.43,1
68,1,10,60,3.5,1
68,1,11,0,2.2,1
68,1,12,240,6.45,1
69,0,1,300,11.13,1
69,0,2,240,3.63,1
69,0,3,120,8.1,1
69,0,4,60,3.05,1
69,0,5,180,6.2,1
69,0,6,180,18.73,1
69,0,7,0,2.8,1
69,0,8,300,10.92,1
69,0,9,120,3.93,1
69,0,10,240,5.5,1
69,0,11,0,4.35,1
69,0,12,60,2.2,1
69,1,1,180,10.25,1
69,1,2,60,3.31,1
69,1,3,60,2.44,1
69,1,4,120,6.9,1
69,1,5,240,3.2,1
69,1,6,180,3,1
69,1,7,0,1.73,1
69,1,8,240,4.62,1
69,1,9,300,1.91,1
69,1,10,300,1.73,1
69,1,11,0,1.45,1
69,1,12,120,1.85,1
70,0,1,300,22.62,1
70,0,2,0,7.85,1
70,0,3,120,9.63,0
70,0,4,120,9.27,1
70,0,5,180,8.13,1
70,0,6,180,15.17,0
70,0,7,300,13.32,1
70,0,8,60,5.5,1
70,0,9,240,4.3,1
70,0,10,0,4.66,0
70,0,11,240,4.85,1
70,0,12,60,6.55,1
70,1,1,0,4.74,1
70,1,2,120,5.7,1
70,1,3,60,3.77,1
70,1,4,180,5.68,1
70,1,5,120,3.83,1
70,1,6,240,11.47,1
70,1,7,300,11.43,1
70,1,8,180,5.73,1
70,1,9,60,3.08,1
70,1,10,0,2.08,0
70,1,11,240,4.03,1
70,1,12,300,2.16,1
72,0,1,120,27.56,1
72,0,2,120,18.03,1
72,0,3,0,3.65,1
72,0,4,240,13.15,1
72,0,5,180,41.91,0
72,0,6,300,4.48,1
72,0,7,0,3.38,1
72,0,8,60,4.25,1
72,0,9,240,10.57,1
72,0,10,60,2.65,1
72,0,11,300,3.38,1
72,0,12,180,8.41,0
72,1,1,240,10.43,1
72,1,2,0,2.88,1
72,1,3,180,6.13,1
72,1,4,180,4.12,1
72,1,5,120,2.42,1
72,1,6,60,2.12,1
72,1,7,300,1.8,1
72,1,8,300,1.82,1
72,1,9,240,2.7,1
72,1,10,120,2.27,1
72,1,11,60,3.08,1
72,1,12,0,1.98,1
73,0,1,180,12.38,1
73,0,2,300,9.85,1
73,0,3,120,6.63,1
73,0,4,240,6.9,1
73,0,5,180,20.48,1
73,0,6,0,10.48,1
73,0,7,0,2.55,1
73,0,8,60,5.01,1
73,0,9,60,4.67,1
73,0,10,300,4.6,1
73,0,11,120,10.53,1
73,0,12,240,6.15,1
73,1,1,120,8.09,1
73,1,2,300,5.72,1
73,1,3,180,14.7,1
73,1,4,120,3.87,1
73,1,5,60,2.75,1
73,1,6,0,2.4,1
73,1,7,0,1.84,1
73,1,8,60,2.85,1
73,1,9,240,2.47,1
73,1,10,300,2.03,1
73,1,11,240,21.73,1
73,1,12,180,35.78,1
74,0,1,180,9.5,1
74,0,2,300,19.32,1
74,0,3,240,11.24,1
74,0,4,120,6.26,1
74,0,5,180,8.68,1
74,0,6,60,4.66,1
74,0,7,240,5.02,1
74,0,8,0,7.67,0
74,0,9,300,11.75,0
74,0,10,0,5.03,1
74,0,11,120,3.23,1
74,0,12,60,4.82,0
74,1,1,60,7.63,1
74,1,2,180,8.53,1
74,1,3,300,8.72,1
74,1,4,0,9.71,0
74,1,5,0,5.62,1
74,1,6,120,4.42,1
74,1,7,180,7.56,1
74,1,8,240,4.93,1
74,1,9,300,6.63,1
74,1,10,120,5.35,1
74,1,11,60,4.41,1
74,1,12,240,3.08,1
76,0,1,240,46.18,1
76,0,2,300,32.43,1
76,0,3,60,31.53,1
76,0,4,120,19.07,1
76,0,5,300,18.15,1
76,0,6,240,28.91,1
76,0,7,180,73.6,0
76,0,8,120,3.92,0
76,0,9,60,17.22,1
76,0,10,180,26.93,1
76,0,11,0,10.2,1
76,0,12,0,11.78,1
76,1,1,0,38.97,1
76,1,2,120,78.19,0
76,1,3,240,13.86,1
76,1,4,0,16.43,1
76,1,5,180,14.91,1
76,1,6,240,32.27,0
76,1,7,60,26.41,1
76,1,8,300,17.3,1
76,1,9,300,10.02,0
76,1,10,120,5.91,0
76,1,11,180,19.17,0
76,1,12,60,10.3,1
80,0,1,120,16.13,1
80,0,2,60,8.98,1
80,0,3,300,17.88,1
80,0,4,0,10.03,1
80,0,5,180,53.15,0
80,0,6,60,8.91,1
80,0,7,180,23.73,1
80,0,8,0,6.21,1
80,0,9,240,13.05,1
80,0,10,120,13.73,1
80,0,11,300,7.43,1
80,0,12,240,14.27,1
80,1,1,240,20.01,1
80,1,2,180,12.62,0
80,1,3,240,5.03,1
80,1,4,120,7.11,1
80,1,5,300,7.75,1
80,1,6,120,7.21,1
80,1,7,60,4.55,1
80,1,8,0,4.51,1
80,1,9,60,4.32,1
80,1,10,180,22.37,0
80,1,11,0,4.8,1
80,1,12,300,3.63,1
81,0,1,60,9.1,1
81,0,2,0,10.25,1
81,0,3,120,10.38,1
81,0,4,240,8.72,1
81,0,5,240,4.98,1
81,0,6,0,4.02,1
81,0,7,180,8.2,1
81,0,8,60,3.46,1
81,0,9,300,3.99,1
81,0,10,300,5.28,1
81,0,11,180,6.35,0
81,0,12,120,6.05,1
81,1,1,180,27.94,1
81,1,2,240,29.05,0
81,1,3,120,38.28,1
81,1,4,120,14.3,0
81,1,5,60,12.92,1
81,1,6,240,4.25,1
81,1,7,300,14.92,0
81,1,8,60,13.6,1
81,1,9,0,13.58,0
81,1,10,180,15.73,0
81,1,11,300,41.33,0
81,1,12,0,12.41,0
82,0,1,240,12.05,1
82,0,2,240,15.09,1
82,0,3,180,28.6,1
82,0,4,120,7.37,1
82,0,5,60,4.33,1
82,0,6,0,4.52,1
82,0,7,180,17.64,1
82,0,8,300,6,1
82,0,9,120,11.93,1
82,0,10,0,4.8,1
82,0,11,300,4.4,1
82,0,12,60,6,1
82,1,1,300,10.91,1
82,1,2,300,4.53,1
82,1,3,0,4.22,1
82,1,4,60,3.55,1
82,1,5,240,3.87,1
82,1,6,120,4.12,1
82,1,7,180,4.95,1
82,1,8,0,6.63,1
82,1,9,240,3.76,1
82,1,10,60,2.67,1
82,1,11,120,5.4,1
82,1,12,180,4,1
83,0,1,120,8.08,0
83,0,2,180,8.2,1
83,0,3,240,5.44,0
83,0,4,120,9.03,1
83,0,5,0,5.97,0
83,0,6,60,3.68,0
83,0,7,300,16.17,1
83,0,8,0,12.83,1
83,0,9,60,10.19,1
83,0,10,240,8.77,1
83,0,11,300,10.19,0
83,0,12,180,6.63,0
83,1,1,240,17.17,1
83,1,2,60,8.84,1
83,1,3,300,8,0
83,1,4,0,15.33,1
83,1,5,180,17.13,0
83,1,6,300,5.65,1
83,1,7,180,10.14,0
83,1,8,0,7.63,1
83,1,9,120,8.62,0
83,1,10,60,7.18,1
83,1,11,120,12.87,0
83,1,12,240,5.75,0
84,0,1,180,5.33,0
84,0,2,240,4.65,0
84,0,3,120,14.4,0
84,0,4,0,9.2,0
84,0,5,300,32.12,0
84,0,6,60,7.27,0
84,0,7,60,18.43,1
84,0,8,240,8,1
84,0,9,120,2.16,0
84,0,10,180,3.83,1
84,0,11,0,2.65,1
84,0,12,300,1.5,0
84,1,1,60,3.73,0
84,1,2,180,1.75,1
84,1,3,240,2.6,1
84,1,4,0,1.92,1
84,1,5,300,1.54,0
84,1,6,120,1.85,1
84,1,7,0,1.8,0
84,1,8,180,9.33,1
84,1,9,120,3.35,1
84,1,10,300,2.4,0
84,1,11,60,2.75,1
84,1,12,240,5.05,0
86,0,1,0,7.61,1
86,0,2,300,11.4,1
86,0,3,60,4.21,1
86,0,4,60,4.95,1
86,0,5,180,8.34,1
86,0,6,240,6.98,1
86,0,7,180,5.78,1
86,0,8,0,3.53,1
86,0,9,300,3.61,1
86,0,10,120,4.13,1
86,0,11,120,4.2,1
86,0,12,240,7.49,1
86,1,1,60,23.56,0
86,1,2,0,11.15,1
86,1,3,240,14.38,0
86,1,4,180,16.61,0
86,1,5,120,5.58,1
86,1,6,0,17.83,1
86,1,7,180,5.58,0
86,1,8,60,4.55,1
86,1,9,240,5.8,0
86,1,10,300,6.15,1
86,1,11,120,11.39,1
86,1,12,300,17.15,0
87,0,1,60,8.13,1
87,0,2,0,5.75,1
87,0,3,120,9.33,0
87,0,4,240,9.3,1
87,0,5,300,4.4,1
87,0,6,300,3.78,1
87,0,7,240,3.91,1
87,0,8,60,4.48,1
87,0,9,0,4.15,1
87,0,10,180,17.38,1
87,0,11,180,10.28,1
87,0,12,120,6.2,1
87,1,1,60,14.17,1
87,1,2,0,5.65,1
87,1,3,0,3.2,1
87,1,4,240,4.03,1
87,1,5,180,9.98,0
87,1,6,60,6.11,1
87,1,7,120,3.63,1
87,1,8,300,3.81,1
87,1,9,300,2.6,1
87,1,10,180,7.5,0
87,1,11,240,4.98,1
87,1,12,120,5.83,1
88,0,1,300,7.1,1
88,0,2,60,5.87,1
88,0,3,180,6,1
88,0,4,0,4.06,1
88,0,5,120,3.8,1
88,0,6,180,6.84,1
88,0,7,240,7.43,1
88,0,8,240,4.44,1
88,0,9,300,4.52,1
88,0,10,60,3.72,1
88,0,11,120,6.13,1
88,0,12,0,3.7,1
88,1,1,60,8.92,1
88,1,2,240,3.51,1
88,1,3,240,2.93,1
88,1,4,300,2.5,1
88,1,5,180,10.87,1
88,1,6,180,5.06,1
88,1,7,300,3.57,1
88,1,8,120,2.98,1
88,1,9,60,2.48,1
88,1,10,0,2.28,1
88,1,11,120,2.2,1
88,1,12,0,2.08,1
89,0,1,60,4.63,1
89,0,2,0,3.28,1
89,0,3,0,3.13,1
89,0,4,300,3.32,1
89,0,5,60,3.6,1
89,0,6,180,12.62,1
89,0,7,120,4.81,1
89,0,8,120,3.08,1
89,0,9,300,3.38,1
89,0,10,240,5.62,1
89,0,11,180,6.43,1
89,0,12,240,7.97,1
89,1,1,60,5.07,1
89,1,2,60,4.68,1
89,1,3,300,5.75,1
89,1,4,180,4.03,1
89,1,5,300,3.05,1
89,1,6,240,2.88,1
89,1,7,180,3.4,1
89,1,8,0,2.38,1
89,1,9,120,3.08,1
89,1,10,240,3,1
89,1,11,120,2.57,1
89,1,12,0,2.58,1
90,0,1,60,9.34,1
90,0,2,60,5.18,1
90,0,3,300,3.7,1
90,0,4,180,3.63,1
90,0,5,240,5.21,1
90,0,6,120,2.9,1
90,0,7,240,5.5,1
90,0,8,0,4.85,1
90,0,9,180,5.18,1
90,0,10,0,2.89,1
90,0,11,120,2.92,1
90,0,12,300,3.45,1
90,1,1,300,12.39,1
90,1,2,0,5.13,1
90,1,3,120,3.76,1
90,1,4,300,4.57,1
90,1,5,240,5.41,1
90,1,6,60,7.4,1
90,1,7,240,2.87,1
90,1,8,180,6.42,1
90,1,9,0,2.95,1
90,1,10,60,2.15,1
90,1,11,120,2.28,1
90,1,12,180,2.48,1
92,0,1,120,9.14,1
92,0,2,60,6.63,1
92,0,3,120,7.87,1
92,0,4,0,3.62,1
92,0,5,300,3.68,1
92,0,6,300,3.42,1
92,0,7,180,4.28,1
92,0,8,240,7.53,1
92,0,9,180,3.6,1
92,0,10,60,2.75,1
92,0,11,0,2.7,1
92,0,12,240,7.3,0
92,1,1,120,26.35,0
92,1,2,300,5.88,1
92,1,3,120,6.27,1
92,1,4,60,3.97,1
92,1,5,60,3,1
92,1,6,180,6.27,1
92,1,7,240,2.95,1
92,1,8,0,4.21,1
92,1,9,0,2.29,1
92,1,10,180,5.83,1
92,1,11,300,3.35,1
92,1,12,240,6.05,1
93,0,1,120,63.31,1
93,0,2,300,24.05,1
93,0,3,180,91.57,0
93,0,4,60,12.53,1
93,0,5,240,16.44,1
93,0,6,0,9.05,1
93,0,7,300,7.15,1
93,0,8,180,34.57,0
93,0,9,240,7.59,0
93,0,10,60,8.74,1
93,0,11,0,3.57,1
93,0,12,120,7.83,0
93,1,1,240,28.53,1
93,1,2,60,19.12,1
93,1,3,240,15.22,1
93,1,4,0,4.57,1
93,1,5,300,4.77,1
93,1,6,120,35.53,1
93,1,7,120,29.13,1
93,1,8,300,9.15,1
93,1,9,180,9.95,0
93,1,10,60,4.93,1
93,1,11,0,5.87,1
93,1,12,180,13.3,0
94,0,1,240,6.31,1
94,0,2,300,4.95,0
94,0,3,120,6.72,1
94,0,4,300,6.45,0
94,0,5,180,9.08,1
94,0,6,120,5,1
94,0,7,0,3.28,0
94,0,8,240,3.17,0
94,0,9,60,6.98,0
94,0,10,0,4.87,0
94,0,11,180,25.83,1
94,0,12,60,6.12,1
94,1,1,240,11.09,1
94,1,2,180,2.9,0
94,1,3,60,4.8,0
94,1,4,300,5.18,1
94,1,5,0,5.8,0
94,1,6,240,3.3,0
94,1,7,120,12.78,1
94,1,8,60,6.21,0
94,1,9,180,25.81,0
94,1,10,0,13.58,1
94,1,11,120,19.38,0
94,1,12,300,7.05,1
95,0,1,240,12.92,1
95,0,2,60,3.82,1
95,0,3,120,4.53,1
95,0,4,180,9.02,0
95,0,5,0,6.6,1
95,0,6,300,4.48,1
95,0,7,300,5.28,1
95,0,8,0,2.87,1
95,0,9,60,2.57,1
95,0,10,120,4.87,1
95,0,11,180,10.18,1
95,0,12,240,3.29,1
95,1,1,240,48.87,1
95,1,2,0,19,1
95,1,3,180,12.62,1
95,1,4,120,4.2,1
95,1,5,60,3.87,1
95,1,6,240,11.03,0
95,1,7,120,8.12,1
95,1,8,180,9.7,1
95,1,9,300,4.85,1
95,1,10,300,7.33,1
95,1,11,0,2.87,1
95,1,12,60,5.78,0
96,0,1,300,9.83,1
96,0,2,120,17.56,1
96,0,3,60,3.92,1
96,0,4,180,8.43,0
96,0,5,0,5.56,0
96,0,6,180,9.25,1
96,0,7,240,7.98,0
96,0,8,120,9.78,1
96,0,9,0,3.7,1
96,0,10,300,8.68,0
96,0,11,240,11.35,1
96,0,12,60,8.42,1
96,1,1,120,8.35,0
96,1,2,0,17.93,1
96,1,3,240,9.53,1
96,1,4,120,4.9,1
96,1,5,60,4.17,1
96,1,6,300,4.11,1
96,1,7,300,2.68,1
96,1,8,240,3.37,1
96,1,9,180,6.73,1
96,1,10,0,2.32,1
96,1,11,60,2.24,1
96,1,12,180,4.15,1
97,0,1,60,16.86,1
97,0,2,180,13.92,0
97,0,3,300,6.78,1
97,0,4,240,9.13,1
97,0,5,0,8.08,1
97,0,6,240,5.05,1
97,0,7,60,7.9,1
97,0,8,120,5.08,1
97,0,9,120,12.18,1
97,0,10,300,5.28,1
97,0,11,180,11.42,0
97,0,12,0,8.1,1
97,1,1,180,42.45,1
97,1,2,60,7.05,1
97,1,3,240,7.75,1
97,1,4,300,6.78,1
97,1,5,0,9.12,1
97,1,6,240,5.04,1
97,1,7,60,10.85,1
97,1,8,120,8.27,1
97,1,9,0,6.45,1
97,1,10,300,5.7,1
97,1,11,120,8.08,1
97,1,12,180,22.88,0
98,0,1,180,44.78,0
98,0,2,180,10.28,0
98,0,3,120,9.53,0
98,0,4,120,4.93,0
98,0,5,60,18.97,1
98,0,6,0,18.3,0
98,0,7,240,3.4,0
98,0,8,0,20.13,1
98,0,9,300,5.38,1
98,0,10,300,3.67,1
98,0,11,60,11.17,1
98,0,12,240,5.13,1
98,1,1,180,18.28,0
98,1,2,0,9.17,1
98,1,3,240,6.08,1
98,1,4,300,9.68,1
98,1,5,120,7.51,0
98,1,6,60,5.55,1
98,1,7,60,4.22,1
98,1,8,120,9.66,1
98,1,9,0,4.03,1
98,1,10,180,7.26,0
98,1,11,300,7.51,1
98,1,12,240,6.16,1
100,0,1,0,44.49,1
100,0,2,120,33.45,1
100,0,3,300,5.19,1
100,0,4,60,3.47,1
100,0,5,300,4.7,1
100,0,6,60,3.53,1
100,0,7,240,5.43,1
100,0,8,180,9.4,1
100,0,9,120,2.43,1
100,0,10,180,9.32,1
100,0,11,240,2.67,1
100,0,12,0,3.83,1
100,1,1,180,27.37,0
100,1,2,240,82.07,1
100,1,3,120,21.83,1
100,1,4,120,9.59,1
100,1,5,0,3.78,1
100,1,6,300,3.69,1
100,1,7,180,3.32,0
100,1,8,240,50.59,1
100,1,9,60,8.73,1
100,1,10,0,5.17,1
100,1,11,60,2.7,1
100,1,12,300,3.3,1
101,0,1,60,4.82,0
101,0,2,180,9.98,1
101,0,3,300,7.39,1
101,0,4,240,2.55,1
101,0,5,60,5.7,1
101,0,6,120,3.39,1
101,0,7,120,2.85,0
101,0,8,240,4.33,1
101,0,9,300,3.23,1
101,0,10,180,3.6,1
101,0,11,0,4.95,0
101,0,12,0,2.97,0
101,1,1,240,7.3,0
101,1,2,300,2.57,1
101,1,3,60,6.2,1
101,1,4,300,5.97,0
101,1,5,60,2.3,0
101,1,6,240,1.75,0
101,1,7,120,2.33,1
101,1,8,180,6.26,0
101,1,9,0,6.02,1
101,1,10,0,4.8,0
101,1,11,120,2.05,1
101,1,12,180,3.1,1
102,0,1,120,21.04,1
102,0,2,0,13.05,1
102,0,3,0,15.77,1
102,0,4,120,15.6,1
102,0,5,60,6.73,1
102,0,6,60,12.43,1
102,0,7,240,8.26,1
102,0,8,300,18.1,0
102,0,9,240,7.2,0
102,0,10,180,20.28,0
102,0,11,180,15.93,0
102,0,12,300,19.08,1
102,1,1,180,19.27,1
102,1,2,0,10.07,1
102,1,3,60,8.45,1
102,1,4,0,7.08,0
102,1,5,180,6.48,1
102,1,6,240,7.61,1
102,1,7,300,9.08,1
102,1,8,60,5.62,1
102,1,9,120,6.09,1
102,1,10,300,12.3,1
102,1,11,120,3.82,1
102,1,12,240,5.85,0
104,0,1,300,5.89,1
104,0,2,300,3.55,1
104,0,3,120,23.17,1
104,0,4,120,2.85,1
104,0,5,60,5.2,1
104,0,6,0,2.22,1
104,0,7,180,3.76,1
104,0,8,0,2.23,1
104,0,9,180,6.32,0
104,0,10,240,3.75,1
104,0,11,60,2.55,1
104,0,12,240,4.49,1
104,1,1,0,24.45,1
104,1,2,300,4.62,0
104,1,3,300,4.67,0
104,1,4,180,4.38,1
104,1,5,0,6,1
104,1,6,240,9.8,1
104,1,7,240,4.33,1
104,1,8,120,5.25,1
104,1,9,60,2.26,1
104,1,10,180,3.01,1
104,1,11,120,2.53,1
104,1,12,60,2.02,1
105,0,1,60,4.97,1
105,0,2,300,4.17,1
105,0,3,240,5.67,1
105,0,4,120,4.57,1
105,0,5,0,4.75,1
105,0,6,120,3.7,1
105,0,7,300,3.12,1
105,0,8,0,3.6,1
105,0,9,180,3.83,1
105,0,10,240,5.18,1
105,0,11,60,4.2,1
105,0,12,180,5.5,1
105,1,1,300,19.51,1
105,1,2,0,5.17,1
105,1,3,180,10.83,1
105,1,4,180,4.4,1
105,1,5,60,6.6,1
105,1,6,120,4.15,1
105,1,7,240,6.62,1
105,1,8,0,9.32,1
105,1,9,300,3.88,1
105,1,10,240,5.28,1
105,1,11,60,5.6,1
105,1,12,120,3.52,1
106,0,1,300,10.37,1
106,0,2,300,4.04,1
106,0,3,240,4.15,1
106,0,4,120,5,1
106,0,5,180,9.44,1
106,0,6,60,3.97,1
106,0,7,120,3.75,1
106,0,8,60,2.72,1
106,0,9,0,5.9,1
106,0,10,180,3.43,1
106,0,11,240,3.25,1
106,0,12,0,2.35,1
106,1,1,180,43.76,0
106,1,2,120,14.39,1
106,1,3,240,8.58,1
106,1,4,0,9.42,1
106,1,5,300,7.55,1
106,1,6,60,9,1
106,1,7,60,4.75,1
106,1,8,240,5.95,0
106,1,9,300,4.88,0
106,1,10,0,9.6,0
106,1,11,180,9.64,1
106,1,12,120,6.83,1
108,0,1,0,14.67,1
108,0,2,180,7.25,0
108,0,3,60,8.58,1
108,0,4,240,6.48,1
108,0,5,300,6.65,1
108,0,6,120,3.75,1
108,0,7,300,4.2,1
108,0,8,120,2.57,1
108,0,9,240,2.98,1
108,0,10,180,3.58,0
108,0,11,60,3.98,1
108,0,12,0,2.48,1
108,1,1,180,38.87,0
108,1,2,300,4.03,0
108,1,3,0,10.68,1
108,1,4,240,3.1,1
108,1,5,60,5.05,1
108,1,6,0,6.4,1
108,1,7,240,2.35,1
108,1,8,180,3.2,1
108,1,9,120,5.18,1
108,1,10,300,2,1
108,1,11,60,3,1
108,1,12,120,3.19,1
109,0,1,0,10.29,1
109,0,2,240,6.93,1
109,0,3,60,7.28,1
109,0,4,60,3.25,1
109,0,5,240,3.97,1
109,0,6,120,7.05,0
109,0,7,120,3.35,1
109,0,8,180,5.32,1
109,0,9,180,4.08,1
109,0,10,300,7.11,1
109,0,11,0,4.15,1
109,0,12,300,2.64,1
109,1,1,120,13.89,1
109,1,2,0,3.8,0
109,1,3,120,11.15,1
109,1,4,60,3.61,1
109,1,5,180,3.63,1
109,1,6,180,3.53,1
109,1,7,60,3.74,1
109,1,8,0,2.99,1
109,1,9,300,4.27,1
109,1,10,240,5.2,1
109,1,11,240,3.07,1
109,1,12,300,2.92,1
110,0,1,120,8.55,1
110,0,2,120,7.18,0
110,0,3,0,14.33,1
110,0,4,300,6.62,1
110,0,5,0,10.31,1
110,0,6,180,6.43,1
110,0,7,180,10.83,1
110,0,8,60,8.83,1
110,0,9,60,7.2,1
110,0,10,240,3.62,1
110,0,11,240,3.78,1
110,0,12,300,3.97,1
110,1,1,120,16.52,1
110,1,2,180,5.82,1
110,1,3,180,7.96,1
110,1,4,120,2.87,1
110,1,5,240,5.05,1
110,1,6,60,2.57,1
110,1,7,240,5.08,1
110,1,8,300,3,1
110,1,9,0,2.4,1
110,1,10,0,2.17,1
110,1,11,300,3.2,1
110,1,12,60,1.96,1
112,0,1,0,8.81,1
112,0,2,60,3.07,1
112,0,3,0,3.28,1
112,0,4,240,43.25,1
112,0,5,60,4.85,1
112,0,6,180,7.07,0
112,0,7,240,5.73,1
112,0,8,300,5.02,1
112,0,9,300,4,1
112,0,10,120,8.7,1
112,0,11,180,6.05,1
112,0,12,120,21.17,0
112,1,1,180,23.7,1
112,1,2,300,4.16,1
112,1,3,60,3.8,1
112,1,4,240,6.53,1
112,1,5,300,3.53,1
112,1,6,60,8.9,1
112,1,7,240,2.78,1
112,1,8,0,7.76,1
112,1,9,180,16.4,1
112,1,10,120,6.27,1
112,1,11,120,4.62,1
112,1,12,0,3.72,1
113,0,1,240,27.51,1
113,0,2,300,8.3,0
113,0,3,0,10.15,1
113,0,4,0,6.17,1
113,0,5,60,4.42,1
113,0,6,240,4.02,1
113,0,7,60,3.37,1
113,0,8,180,5.3,1
113,0,9,300,2.7,1
113,0,10,180,10.33,1
113,0,11,120,4.2,1
113,0,12,120,4.28,1
113,1,1,180,11.86,1
113,1,2,240,3.94,1
113,1,3,0,3.06,1
113,1,4,120,6.06,1
113,1,5,120,2.02,1
113,1,6,240,4.72,1
113,1,7,300,2.28,1
113,1,8,0,1.85,1
113,1,9,60,1.73,1
113,1,10,180,6.58,1
113,1,11,300,1.93,1
113,1,12,60,2.35,1
114,0,1,0,16.08,1
114,0,2,180,12.52,0
114,0,3,60,9.35,1
114,0,4,0,10.98,1
114,0,5,60,7.91,1
114,0,6,240,11.68,1
114,0,7,300,10.58,1
114,0,8,120,8.35,1
114,0,9,120,7.15,1
114,0,10,180,7.7,1
114,0,11,240,11.75,1
114,0,12,300,9.87,1
114,1,1,60,33.54,1
114,1,2,120,11.17,1
114,1,3,240,10.58,1
114,1,4,60,5.78,1
114,1,5,0,8.15,1
114,1,6,120,5.05,1
114,1,7,300,5.6,1
114,1,8,180,24.83,0
114,1,9,180,6.82,1
114,1,10,240,6.12,1
114,1,11,0,5.6,1
114,1,12,300,5.27,1
115,0,1,60,14.17,1
115,0,2,120,9.68,1
115,0,3,300,4.15,1
115,0,4,240,7.95,0
115,0,5,0,7.12,1
115,0,6,300,3.81,1
115,0,7,180,12.09,0
115,0,8,240,7.75,1
115,0,9,0,6.43,1
115,0,10,120,5.38,1
115,0,11,180,7.62,0
115,0,12,60,9.67,1
115,1,1,240,51.7,1
115,1,2,240,23.92,1
115,1,3,120,8.95,1
115,1,4,180,6.95,1
115,1,5,300,5.5,0
115,1,6,180,20.65,1
115,1,7,0,7.7,1
115,1,8,120,19.28,1
115,1,9,60,11.33,1
115,1,10,0,13.78,0
115,1,11,300,14.72,1
115,1,12,60,7.6,1
116,0,1,0,18.15,1
116,0,2,180,9.05,1
116,0,3,60,12.25,1
116,0,4,120,38.13,1
116,0,5,0,13.9,0
116,0,6,300,10.85,1
116,0,7,300,13.82,1
116,0,8,240,11.52,1
116,0,9,240,14.07,1
116,0,10,180,16.32,1
116,0,11,120,18.13,0
116,0,12,60,8.08,0
116,1,1,60,9.56,0
116,1,2,0,33.08,1
116,1,3,120,6.48,0
116,1,4,0,31.38,0
116,1,5,300,18.08,0
116,1,6,240,29.78,1
116,1,7,240,5.82,1
116,1,8,300,7.92,0
116,1,9,120,11.25,1
116,1,10,180,10.55,1
116,1,11,180,11.14,1
116,1,12,60,6.88,0
117,0,1,0,4.26,1
117,0,2,120,3.55,1
117,0,3,240,4.43,1
117,0,4,180,5.15,1
117,0,5,180,3.63,1
117,0,6,300,2.75,1
117,0,7,0,2.5,1
117,0,8,240,2.93,1
117,0,9,60,3.47,1
117,0,10,60,2.48,1
117,0,11,300,2.17,1
117,0,12,120,4.53,0
117,1,1,60,13.53,1
117,1,2,300,3.18,1
117,1,3,120,4.92,1
117,1,4,240,3.95,1
117,1,5,180,8.1,1
117,1,6,60,4.3,1
117,1,7,0,2.98,1
117,1,8,180,3.35,1
117,1,9,120,3.28,1
117,1,10,300,2.02,1
117,1,11,240,2.75,1
117,1,12,0,2.55,1
118,0,1,120,4.06,1
118,0,2,0,5.61,1
118,0,3,300,3.08,1
118,0,4,180,3.31,1
118,0,5,60,2.6,0
118,0,6,60,3.1,1
118,0,7,240,2.47,1
118,0,8,0,3.87,1
118,0,9,120,2.35,0
118,0,10,240,4.4,1
118,0,11,300,1.73,0
118,0,12,180,4.67,0
118,1,1,60,7.45,0
118,1,2,180,7.95,0
118,1,3,240,3.4,1
118,1,4,240,1.82,0
118,1,5,120,4.13,0
118,1,6,0,17.17,1
118,1,7,120,4,1
118,1,8,180,6.65,0
118,1,9,300,2.77,1
118,1,10,300,4.53,0
118,1,11,0,14.37,0
118,1,12,60,7.05,0
119,0,1,120,30.65,1
119,0,2,60,10.08,1
119,0,3,180,7.25,1
119,0,4,180,14.05,1
119,0,5,0,15.67,1
119,0,6,300,10.62,1
119,0,7,240,10.88,1
119,0,8,240,8.77,1
119,0,9,0,12.13,1
119,0,10,300,7.3,1
119,0,11,60,30.1,1
119,0,12,120,9.97,0
119,1,1,0,26.83,1
119,1,2,300,7.75,1
119,1,3,0,4.88,1
119,1,4,300,4.88,1
119,1,5,60,3.3,1
119,1,6,180,37.95,1
119,1,7,120,8.82,1
119,1,8,240,7.33,1
119,1,9,180,14.18,1
119,1,10,60,2.87,1
119,1,11,120,3.42,1
119,1,12,240,5.95,1
120,0,1,60,23.62,1
120,0,2,0,5.62,1
120,0,3,60,5.68,1
120,0,4,240,4.67,1
120,0,5,300,5.05,1
120,0,6,120,8.23,1
120,0,7,300,5.2,1
120,0,8,240,5.05,1
120,0,9,180,7,1
120,0,10,180,6.51,1
120,0,11,0,5.47,1
120,0,12,120,7.25,1
120,1,1,240,11.09,1
120,1,2,120,7.38,1
120,1,3,180,7.42,1
120,1,4,180,7.48,1
120,1,5,0,4.48,1
120,1,6,300,5.35,1
120,1,7,300,4.02,1
120,1,8,0,5.4,1
120,1,9,60,4.12,1
120,1,10,240,6.68,1
120,1,11,120,6.35,1
120,1,12,60,4.17,1
121,0,1,240,3.58,1
121,0,2,180,9.27,1
121,0,3,240,2.83,1
121,0,4,120,4.3,1
121,0,5,300,2.33,1
121,0,6,60,2.53,1
121,0,7,120,2.72,1
121,0,8,180,2.68,1
121,0,9,300,2.6,1
121,0,10,0,2.18,1
121,0,11,0,1.95,1
121,0,12,60,2.03,1
121,1,1,120,4.78,1
121,1,2,180,3.51,1
121,1,3,300,2.17,1
121,1,4,0,1.9,1
121,1,5,240,2.13,1
121,1,6,60,1.92,1
121,1,7,120,2.68,1
121,1,8,0,1.63,1
121,1,9,240,1.92,1
121,1,10,300,1.83,1
121,1,11,60,1.61,1
121,1,12,180,2.75,1
122,0,1,180,5.02,1
122,0,2,300,5.8,1
122,0,3,300,6.72,1
122,0,4,60,3.88,1
122,0,5,120,5.72,1
122,0,6,180,6.3,1
122,0,7,120,4.55,1
122,0,8,60,2.75,1
122,0,9,0,2.55,1
122,0,10,240,4.08,1
122,0,11,0,2.76,1
122,0,12,240,3.56,1
122,1,1,300,7.76,1
122,1,2,240,4.1,1
122,1,3,300,2.82,1
122,1,4,60,2.88,1
122,1,5,120,3.65,1
122,1,6,180,3.98,1
122,1,7,0,3.45,1
122,1,8,120,2.78,1
122,1,9,240,3.36,1
122,1,10,60,2.24,1
122,1,11,180,2.55,1
122,1,12,0,2.62,1
123,0,1,120,7.24,1
123,0,2,240,5.45,1
123,0,3,180,4.6,0
123,0,4,180,10.62,1
123,0,5,300,3.28,1
123,0,6,60,4.32,1
123,0,7,300,3.75,1
123,0,8,0,3.8,1
123,0,9,120,3.17,0
123,0,10,0,5.45,1
123,0,11,60,4.87,1
123,0,12,240,3.57,1
123,1,1,0,10.31,1
123,1,2,300,3.02,1
123,1,3,60,2.62,1
123,1,4,180,4.5,1
123,1,5,300,4.25,1
123,1,6,120,4.43,1
123,1,7,180,5.08,0
123,1,8,60,4.58,1
123,1,9,240,4.38,1
123,1,10,120,2.9,1
123,1,11,0,4.4,1
123,1,12,240,2.88,1
124,0,1,240,5.32,1
124,0,2,120,3.53,1
124,0,3,60,2.8,1
124,0,4,300,2.78,1
124,0,5,180,4.12,1
124,0,6,300,2.78,1
124,0,7,0,2.7,1
124,0,8,240,2.98,1
124,0,9,0,2.32,1
124,0,10,120,2.98,1
124,0,11,180,2.8,1
124,0,12,60,2.13,1
124,1,1,180,11.37,1
124,1,2,0,3.58,1
124,1,3,180,4.68,1
124,1,4,120,2.88,1
124,1,5,120,3.72,1
124,1,6,240,3.7,1
124,1,7,60,4.64,1
124,1,8,300,3.2,1
124,1,9,0,2.43,1
124,1,10,240,2.26,1
124,1,11,300,2.43,1
124,1,12,60,1.95,1
125,0,1,240,7.52,1
125,0,2,240,10.43,1
125,0,3,60,3.6,1
125,0,4,120,6.32,1
125,0,5,0,3.15,1
125,0,6,0,2.38,1
125,0,7,180,14.07,1
125,0,8,180,7.67,1
125,0,9,60,2.8,1
125,0,10,300,2.78,1
125,0,11,120,2.5,1
125,0,12,300,2.25,1
125,1,1,180,22.47,1
125,1,2,300,2.83,1
125,1,3,240,2.25,1
125,1,4,180,6.53,1
125,1,5,0,1.73,1
125,1,6,240,2.82,1
125,1,7,60,2.97,1
125,1,8,300,2.02,1
125,1,9,120,2.98,1
125,1,10,120,2.03,1
125,1,11,60,1.6,1
125,1,12,0,1.93,1
126,0,1,120,30.29,1
126,0,2,180,8.3,1
126,0,3,60,5.48,1
126,0,4,0,4.63,1
126,0,5,240,4.72,1
126,0,6,180,7.25,1
126,0,7,120,3.67,0
126,0,8,60,6.58,1
126,0,9,300,5.53,1
126,0,10,300,4.17,1
126,0,11,240,4.58,1
126,0,12,0,3.15,1
126,1,1,180,45.49,1
126,1,2,120,6.42,1
126,1,3,0,4.55,1
126,1,4,0,5.17,1
126,1,5,180,8.77,0
126,1,6,60,5.18,1
126,1,7,240,6.95,1
126,1,8,60,3.57,1
126,1,9,120,4.1,1
126,1,10,300,3.83,1
126,1,11,300,4.35,1
126,1,12,240,3.42,1
127,0,1,120,4.5,1
127,0,2,300,3.46,1
127,0,3,0,2.2,1
127,0,4,60,2.76,1
127,0,5,240,3.65,1
127,0,6,180,5.23,1
127,0,7,300,2.22,1
127,0,8,0,3.22,1
127,0,9,120,2.8,1
127,0,10,180,5.7,1
127,0,11,240,5.15,1
127,0,12,60,2.95,1
127,1,1,0,6.83,1
127,1,2,240,3.42,1
127,1,3,180,3.61,1
127,1,4,240,3.77,1
127,1,5,300,3.55,1
127,1,6,120,4.05,1
127,1,7,0,2.23,1
127,1,8,300,2.06,1
127,1,9,60,2.55,1
127,1,10,180,3.46,1
127,1,11,120,2.67,1
127,1,12,60,1.6,1
128,0,1,240,11.23,1
128,0,2,300,4.98,1
128,0,3,120,6.9,1
128,0,4,180,10.18,1
128,0,5,0,3.3,1
128,0,6,120,9.23,1
128,0,7,60,3.3,1
128,0,8,180,13.92,1
128,0,9,240,8.08,1
128,0,10,60,2.97,1
128,0,11,0,2.77,1
128,0,12,300,3.47,1
128,1,1,180,61.53,1
128,1,2,60,9.05,1
128,1,3,240,4.93,1
128,1,4,120,34.75,0
128,1,5,300,4.6,1
128,1,6,60,8.85,1
128,1,7,240,15.85,0
128,1,8,0,19.52,1
128,1,9,120,16.3,1
128,1,10,300,3.3,1
128,1,11,180,43.42,1
128,1,12,0,6.85,0
129,0,1,300,6.4,0
129,0,2,300,6.87,1
129,0,3,120,5.25,1
129,0,4,60,7.1,1
129,0,5,120,3.2,0
129,0,6,180,4.9,1
129,0,7,240,3.1,0
129,0,8,180,5.38,1
129,0,9,0,3.02,1
129,0,10,60,4.08,1
129,0,11,0,7.73,0
129,0,12,240,8.35,1
129,1,1,180,6.9,1
129,1,2,120,3.8,0
129,1,3,240,2.73,1
129,1,4,240,3.77,0
129,1,5,0,2.53,1
129,1,6,60,4.72,0
129,1,7,60,6.03,0
129,1,8,120,7.27,1
129,1,9,0,8.33,0
129,1,10,300,5,1
129,1,11,180,4.3,1
129,1,12,300,5.88,0
